#!/bin/sh
#
# This script will plot ray paths using GMT. If you want to
#use this as a data file for psxy in another script, delete these
# first lines, to the last psxy, as well as the last line.
#
/bin/rm -f taup_path.ps
# draw surface and label distances.
psbasemap -K -P -R0/360/0/6371.0 -JP6.0i -B30p/500N > taup_path.ps
# draw circles for branches, note these are scaled for a 
# map using -JP6.0i
psxy -K -O -P -R -JP -Sc -A >> taup_path.ps <<ENDLAYERS
0.0 0.0 6.0i
0.0 0.0 6.0i
0.0 0.0 5.9811645i
0.0 0.0 5.967038i
0.0 0.0 5.802229i
0.0 0.0 5.6138754i
0.0 0.0 5.3784337i
0.0 0.0 3.279234i
0.0 0.0 1.1462251i
ENDLAYERS

# draw paths
psxy -P -R -K -O -JP -m -A >> taup_path.ps <<END
> P at   684.38 seconds at    72.59 degrees for a     30.0 km deep source in the iasp91 model with rayParam    5.952 s/deg.
    0.00    6341.0
    0.02    6336.0
    0.02    6334.7
    0.03    6333.3
    0.04    6330.7
    0.06    6325.4
    0.09    6320.1
    0.11    6314.8
    0.16    6304.1
    0.20    6293.5
    0.22    6290.0
    0.26    6280.2
    0.30    6270.5
    0.39    6251.0
    0.40    6249.2
    0.41    6247.4
    0.42    6243.8
    0.46    6236.5
    0.52    6222.6
    0.59    6208.5
    0.59    6207.2
    0.60    6206.0
    0.66    6193.2
    0.72    6180.3
    0.81    6161.0
    0.83    6157.3
    0.85    6153.7
    0.90    6142.0
    0.96    6130.2
    1.06    6111.0
    1.07    6108.8
    1.08    6106.6
    1.14    6094.8
    1.17    6088.8
    1.20    6082.8
    1.26    6072.0
    1.31    6061.0
    1.32    6059.9
    1.33    6058.8
    1.39    6046.8
    1.42    6040.7
    1.45    6034.6
    1.52    6022.9
    1.58    6011.0
    1.59    6010.6
    1.59    6010.2
    1.66    5998.0
    1.69    5991.8
    1.73    5985.6
    1.80    5973.3
    1.87    5961.0
    1.89    5957.4
    1.91    5953.8
    1.96    5946.5
    2.04    5932.6
    2.13    5918.6
    2.18    5911.0
    2.31    5890.3
    2.50    5861.7
    2.51    5861.0
    2.70    5832.7
    2.85    5811.0
    2.90    5803.3
    3.12    5773.4
    3.21    5761.0
    3.34    5743.1
    3.57    5712.3
    3.58    5711.0
    3.60    5708.9
    3.62    5706.8
    3.65    5702.6
    3.73    5694.1
    3.87    5677.6
    4.01    5661.0
    4.04    5657.9
    4.07    5654.9
    4.25    5635.0
    4.43    5615.0
    4.47    5611.0
    4.68    5588.6
    4.89    5566.0
    4.91    5563.8
    4.93    5561.5
    5.14    5540.8
    5.34    5520.0
    5.42    5512.0
    5.82    5473.0
    5.93    5462.5
    6.33    5425.1
    6.34    5424.3
    6.34    5423.6
    6.36    5422.1
    6.39    5419.0
    6.43    5416.0
    6.46    5413.0
    6.53    5406.9
    6.59    5400.7
    6.66    5394.5
    6.73    5388.3
    6.87    5375.9
    7.01    5363.5
    7.15    5351.2
    7.30    5338.8
    7.44    5326.4
    7.59    5314.0
    7.89    5289.3
    8.19    5264.5
    8.50    5239.8
    8.82    5215.0
    9.15    5190.3
    9.49    5165.5
    9.87    5138.2
    9.90    5135.7
    9.94    5133.3
   10.01    5128.3
   10.15    5118.4
   10.18    5116.0
   10.44    5098.3
   10.74    5078.1
   10.92    5066.5
   11.05    5057.7
   11.68    5017.8
   11.69    5017.0
   12.01    4997.5
   12.34    4977.2
   12.51    4967.5
   13.03    4937.1
   13.38    4918.0
   13.39    4917.0
   13.77    4896.6
   14.30    4868.5
   14.53    4856.6
   14.93    4836.4
   15.29    4819.0
   15.35    4816.1
   16.21    4776.1
   16.35    4769.5
   16.66    4756.0
   17.13    4735.7
   17.50    4720.0
   18.10    4695.9
   18.62    4675.8
   18.76    4670.5
   19.16    4655.6
   20.15    4621.0
   20.30    4616.0
   20.91    4596.0
   21.56    4575.9
   21.71    4571.5
   22.33    4554.0
   22.95    4536.5
   23.50    4522.0
   24.03    4509.3
   24.55    4496.6
   25.17    4482.6
   25.65    4472.5
   26.58    4456.0
   27.51    4439.5
   28.43    4423.0
   28.79    4417.8
   29.70    4408.9
   30.61    4400.1
   31.51    4391.2
   32.42    4382.4
   33.33    4373.5
   34.30    4370.9
   35.28    4368.2
   36.25    4365.6
   37.22    4368.2
   38.20    4370.9
   39.17    4373.5
   40.08    4382.4
   40.98    4391.2
   41.89    4400.1
   42.80    4408.9
   43.71    4417.8
   44.06    4423.0
   44.99    4439.5
   45.92    4456.0
   46.85    4472.5
   47.32    4482.6
   47.95    4496.6
   48.47    4509.3
   49.00    4522.0
   49.55    4536.5
   50.17    4554.0
   50.79    4571.5
   50.94    4575.9
   51.58    4596.0
   52.20    4616.0
   52.35    4621.0
   53.33    4655.6
   53.74    4670.5
   53.88    4675.8
   54.40    4695.9
   54.99    4720.0
   55.37    4735.7
   55.84    4756.0
   56.15    4769.5
   56.29    4776.1
   57.15    4816.1
   57.21    4819.0
   57.56    4836.4
   57.97    4856.6
   58.20    4868.5
   58.73    4896.6
   59.10    4917.0
   59.12    4918.0
   59.46    4937.1
   59.99    4967.5
   60.15    4977.2
   60.49    4997.5
   60.81    5017.0
   60.82    5017.8
   61.45    5057.7
   61.58    5066.5
   61.76    5078.1
   62.06    5098.3
   62.32    5116.0
   62.35    5118.4
   62.49    5128.3
   62.56    5133.3
   62.60    5135.7
   62.63    5138.2
   63.01    5165.5
   63.35    5190.3
   63.67    5215.0
   64.00    5239.8
   64.31    5264.5
   64.61    5289.3
   64.91    5314.0
   65.06    5326.4
   65.20    5338.8
   65.35    5351.2
   65.49    5363.5
   65.63    5375.9
   65.77    5388.3
   65.84    5394.5
   65.90    5400.7
   65.97    5406.9
   66.04    5413.0
   66.07    5416.0
   66.11    5419.0
   66.14    5422.1
   66.15    5423.6
   66.16    5424.3
   66.17    5425.1
   66.57    5462.5
   66.68    5473.0
   67.08    5512.0
   67.16    5520.0
   67.36    5540.8
   67.56    5561.5
   67.59    5563.8
   67.61    5566.0
   67.82    5588.6
   68.03    5611.0
   68.07    5615.0
   68.25    5635.0
   68.43    5654.9
   68.46    5657.9
   68.48    5661.0
   68.63    5677.6
   68.77    5694.1
   68.84    5702.6
   68.88    5706.8
   68.90    5708.9
   68.92    5711.0
   68.93    5712.3
   69.16    5743.1
   69.29    5761.0
   69.38    5773.4
   69.60    5803.3
   69.65    5811.0
   69.80    5832.7
   69.99    5861.0
   70.00    5861.7
   70.19    5890.3
   70.32    5911.0
   70.37    5918.6
   70.46    5932.6
   70.54    5946.5
   70.59    5953.8
   70.61    5957.4
   70.63    5961.0
   70.70    5973.3
   70.77    5985.6
   70.81    5991.8
   70.84    5998.0
   70.91    6010.2
   70.91    6010.6
   70.91    6011.0
   70.98    6022.9
   71.04    6034.6
   71.08    6040.7
   71.11    6046.8
   71.17    6058.8
   71.18    6059.9
   71.18    6061.0
   71.24    6072.0
   71.30    6082.8
   71.33    6088.8
   71.36    6094.8
   71.42    6106.6
   71.43    6108.8
   71.44    6111.0
   71.54    6130.2
   71.60    6142.0
   71.65    6153.7
   71.67    6157.3
   71.69    6161.0
   71.78    6180.3
   71.84    6193.2
   71.90    6206.0
   71.91    6207.2
   71.91    6208.5
   71.98    6222.6
   72.04    6236.5
   72.07    6243.8
   72.09    6247.4
   72.10    6249.2
   72.11    6251.0
   72.19    6270.5
   72.24    6280.2
   72.28    6290.0
   72.30    6293.5
   72.34    6304.1
   72.39    6314.8
   72.41    6320.1
   72.43    6325.4
   72.46    6330.7
   72.47    6333.3
   72.48    6334.7
   72.48    6336.0
   72.50    6341.0
   72.51    6343.5
   72.52    6347.2
   72.53    6349.1
   72.53    6350.1
   72.53    6351.0
   72.55    6356.0
   72.56    6361.0
   72.58    6366.0
   72.58    6368.5
   72.59    6369.7
   72.59    6371.0
   72.59    6371.0
> pP at   693.82 seconds at    72.59 degrees for a     30.0 km deep source in the iasp91 model with rayParam    5.965 s/deg.
    0.00    6341.0
    0.01    6343.5
    0.02    6347.2
    0.03    6349.1
    0.03    6350.1
    0.03    6351.0
    0.05    6356.0
    0.06    6361.0
    0.08    6366.0
    0.09    6368.5
    0.09    6369.7
    0.09    6371.0
    0.09    6371.0
    0.09    6371.0
    0.10    6369.7
    0.10    6368.5
    0.11    6366.0
    0.12    6361.0
    0.14    6356.0
    0.15    6351.0
    0.16    6350.1
    0.16    6349.1
    0.16    6347.2
    0.18    6343.5
    0.19    6341.0
    0.20    6336.0
    0.21    6334.7
    0.21    6333.3
    0.23    6330.7
    0.25    6325.4
    0.27    6320.1
    0.30    6314.8
    0.34    6304.1
    0.39    6293.5
    0.40    6290.0
    0.45    6280.2
    0.49    6270.5
    0.58    6251.0
    0.59    6249.2
    0.59    6247.4
    0.61    6243.8
    0.64    6236.5
    0.71    6222.6
    0.77    6208.5
    0.78    6207.2
    0.78    6206.0
    0.84    6193.2
    0.90    6180.3
    1.00    6161.0
    1.02    6157.3
    1.03    6153.7
    1.09    6142.0
    1.15    6130.2
    1.24    6111.0
    1.26    6108.8
    1.27    6106.6
    1.33    6094.8
    1.36    6088.8
    1.39    6082.8
    1.45    6072.0
    1.50    6061.0
    1.51    6059.9
    1.51    6058.8
    1.58    6046.8
    1.61    6040.7
    1.64    6034.6
    1.71    6022.9
    1.77    6011.0
    1.78    6010.6
    1.78    6010.2
    1.85    5998.0
    1.88    5991.8
    1.92    5985.6
    1.99    5973.3
    2.06    5961.0
    2.08    5957.4
    2.10    5953.8
    2.15    5946.5
    2.23    5932.6
    2.32    5918.6
    2.37    5911.0
    2.50    5890.3
    2.69    5861.7
    2.70    5861.0
    2.89    5832.7
    3.04    5811.0
    3.10    5803.3
    3.31    5773.4
    3.40    5761.0
    3.53    5743.1
    3.77    5712.3
    3.78    5711.0
    3.80    5708.9
    3.81    5706.8
    3.85    5702.6
    3.92    5694.1
    4.07    5677.6
    4.21    5661.0
    4.24    5657.9
    4.27    5654.9
    4.45    5635.0
    4.63    5615.0
    4.67    5611.0
    4.88    5588.6
    5.09    5566.0
    5.11    5563.8
    5.14    5561.5
    5.34    5540.8
    5.54    5520.0
    5.63    5512.0
    6.02    5473.0
    6.14    5462.5
    6.53    5425.1
    6.54    5424.3
    6.55    5423.6
    6.57    5422.1
    6.60    5419.0
    6.63    5416.0
    6.67    5413.0
    6.73    5406.9
    6.80    5400.7
    6.87    5394.5
    6.94    5388.3
    7.08    5375.9
    7.22    5363.5
    7.36    5351.2
    7.51    5338.8
    7.65    5326.4
    7.80    5314.0
    8.10    5289.3
    8.41    5264.5
    8.72    5239.8
    9.04    5215.0
    9.37    5190.3
    9.71    5165.5
   10.09    5138.2
   10.13    5135.7
   10.16    5133.3
   10.23    5128.3
   10.38    5118.4
   10.41    5116.0
   10.67    5098.3
   10.97    5078.1
   11.15    5066.5
   11.28    5057.7
   11.91    5017.8
   11.93    5017.0
   12.24    4997.5
   12.58    4977.2
   12.75    4967.5
   13.28    4937.1
   13.62    4918.0
   13.64    4917.0
   14.02    4896.6
   14.56    4868.5
   14.79    4856.6
   15.19    4836.4
   15.55    4819.0
   15.61    4816.1
   16.48    4776.1
   16.63    4769.5
   16.93    4756.0
   17.41    4735.7
   17.79    4720.0
   18.39    4695.9
   18.92    4675.8
   19.06    4670.5
   19.47    4655.6
   19.97    4638.3
   20.47    4621.0
   20.62    4616.0
   21.24    4596.0
   21.90    4575.9
   22.05    4571.5
   22.69    4554.0
   23.32    4536.5
   23.88    4522.0
   24.42    4509.3
   24.96    4496.6
   25.60    4482.6
   26.09    4472.5
   27.06    4456.0
   28.04    4439.5
   29.01    4423.0
   29.39    4417.8
   30.37    4410.4
   31.34    4403.0
   32.32    4395.7
   33.29    4388.3
   34.27    4380.9
   35.24    4373.5
   35.79    4372.9
   36.34    4372.4
   36.89    4372.9
   37.44    4373.5
   38.42    4380.9
   39.39    4388.3
   40.37    4395.7
   41.34    4403.0
   42.32    4410.4
   43.29    4417.8
   43.67    4423.0
   44.65    4439.5
   45.62    4456.0
   46.59    4472.5
   47.08    4482.6
   47.73    4496.6
   48.26    4509.3
   48.80    4522.0
   49.36    4536.5
   50.00    4554.0
   50.63    4571.5
   50.78    4575.9
   51.44    4596.0
   52.06    4616.0
   52.21    4621.0
   52.71    4638.3
   53.21    4655.6
   53.62    4670.5
   53.76    4675.8
   54.29    4695.9
   54.89    4720.0
   55.27    4735.7
   55.75    4756.0
   56.06    4769.5
   56.21    4776.1
   57.07    4816.1
   57.13    4819.0
   57.49    4836.4
   57.89    4856.6
   58.13    4868.5
   58.66    4896.6
   59.04    4917.0
   59.06    4918.0
   59.40    4937.1
   59.93    4967.5
   60.10    4977.2
   60.44    4997.5
   60.76    5017.0
   60.77    5017.8
   61.40    5057.7
   61.54    5066.5
   61.71    5078.1
   62.01    5098.3
   62.27    5116.0
   62.31    5118.4
   62.45    5128.3
   62.52    5133.3
   62.56    5135.7
   62.59    5138.2
   62.97    5165.5
   63.31    5190.3
   63.64    5215.0
   63.96    5239.8
   64.28    5264.5
   64.58    5289.3
   64.88    5314.0
   65.03    5326.4
   65.18    5338.8
   65.32    5351.2
   65.46    5363.5
   65.60    5375.9
   65.74    5388.3
   65.81    5394.5
   65.88    5400.7
   65.95    5406.9
   66.02    5413.0
   66.05    5416.0
   66.08    5419.0
   66.12    5422.1
   66.13    5423.6
   66.14    5424.3
   66.15    5425.1
   66.55    5462.5
   66.66    5473.0
   67.06    5512.0
   67.14    5520.0
   67.35    5540.8
   67.55    5561.5
   67.57    5563.8
   67.59    5566.0
   67.81    5588.6
   68.02    5611.0
   68.05    5615.0
   68.24    5635.0
   68.42    5654.9
   68.44    5657.9
   68.47    5661.0
   68.62    5677.6
   68.76    5694.1
   68.83    5702.6
   68.87    5706.8
   68.89    5708.9
   68.91    5711.0
   68.92    5712.3
   69.15    5743.1
   69.28    5761.0
   69.37    5773.4
   69.59    5803.3
   69.64    5811.0
   69.79    5832.7
   69.99    5861.0
   69.99    5861.7
   70.18    5890.3
   70.31    5911.0
   70.36    5918.6
   70.45    5932.6
   70.54    5946.5
   70.58    5953.8
   70.60    5957.4
   70.63    5961.0
   70.70    5973.3
   70.77    5985.6
   70.80    5991.8
   70.84    5998.0
   70.91    6010.2
   70.91    6010.6
   70.91    6011.0
   70.98    6022.9
   71.04    6034.6
   71.07    6040.7
   71.10    6046.8
   71.17    6058.8
   71.17    6059.9
   71.18    6061.0
   71.24    6072.0
   71.29    6082.8
   71.33    6088.8
   71.36    6094.8
   71.42    6106.6
   71.43    6108.8
   71.44    6111.0
   71.54    6130.2
   71.59    6142.0
   71.65    6153.7
   71.67    6157.3
   71.69    6161.0
   71.78    6180.3
   71.84    6193.2
   71.90    6206.0
   71.91    6207.2
   71.91    6208.5
   71.98    6222.6
   72.04    6236.5
   72.07    6243.8
   72.09    6247.4
   72.10    6249.2
   72.11    6251.0
   72.19    6270.5
   72.24    6280.2
   72.28    6290.0
   72.29    6293.5
   72.34    6304.1
   72.39    6314.8
   72.41    6320.1
   72.43    6325.4
   72.46    6330.7
   72.47    6333.3
   72.48    6334.7
   72.48    6336.0
   72.50    6341.0
   72.51    6343.5
   72.52    6347.2
   72.53    6349.1
   72.53    6350.1
   72.53    6351.0
   72.55    6356.0
   72.56    6361.0
   72.58    6366.0
   72.58    6368.5
   72.59    6369.7
   72.59    6371.0
   72.59    6371.0
> S at  1247.68 seconds at    72.59 degrees for a     30.0 km deep source in the iasp91 model with rayParam   11.407 s/deg.
    0.00    6341.0
    0.02    6336.0
    0.03    6334.7
    0.03    6333.3
    0.04    6330.7
    0.07    6325.3
    0.12    6314.6
    0.17    6304.1
    0.22    6293.5
    0.28    6281.9
    0.33    6270.2
    0.42    6253.3
    0.43    6251.0
    0.48    6239.7
    0.54    6228.4
    0.57    6221.5
    0.65    6206.0
    0.69    6197.6
    0.73    6189.1
    0.80    6175.1
    0.87    6161.0
    0.94    6147.3
    1.01    6135.3
    1.07    6123.2
    1.13    6111.0
    1.21    6097.3
    1.27    6085.3
    1.34    6073.2
    1.41    6061.0
    1.50    6043.4
    1.60    6027.3
    1.64    6019.8
    1.69    6011.0
    1.72    6005.4
    1.81    5990.7
    1.90    5975.9
    1.99    5961.0
    2.02    5956.6
    2.04    5952.1
    2.07    5947.7
    2.10    5943.2
    2.15    5935.3
    2.21    5927.2
    2.26    5919.1
    2.29    5915.1
    2.32    5911.0
    2.39    5900.8
    2.46    5890.6
    2.60    5869.8
    2.66    5861.0
    2.74    5850.9
    2.79    5843.3
    2.79    5843.3
    2.79    5842.9
    2.80    5842.6
    2.80    5841.9
    2.81    5840.5
    2.82    5839.1
    2.83    5837.8
    2.83    5837.4
    2.84    5837.1
    2.84    5836.4
    2.85    5835.1
    2.87    5832.5
    2.91    5827.2
    3.03    5811.0
    3.16    5793.3
    3.29    5777.2
    3.37    5766.6
    3.42    5761.0
    3.42    5760.0
    3.52    5748.3
    3.55    5743.9
    3.67    5729.8
    3.69    5727.5
    3.82    5711.0
    3.86    5706.6
    3.91    5702.1
    3.99    5693.2
    4.12    5679.4
    4.15    5677.2
    4.22    5669.1
    4.31    5661.0
    4.49    5642.3
    4.69    5623.4
    4.82    5611.0
    4.89    5604.7
    4.96    5598.4
    5.03    5592.1
    5.09    5585.7
    5.23    5573.6
    5.29    5567.6
    5.36    5561.5
    5.50    5548.9
    5.65    5536.3
    5.92    5512.0
    6.22    5486.8
    6.51    5462.5
    6.82    5437.3
    7.13    5413.0
    7.45    5387.8
    7.77    5363.5
    8.10    5338.3
    8.44    5314.0
    8.79    5288.9
    9.14    5264.5
    9.51    5239.3
    9.70    5227.2
    9.88    5215.0
   10.26    5190.3
   10.66    5165.5
   11.01    5143.8
   11.03    5143.0
   11.04    5142.2
   11.07    5140.6
   11.12    5137.4
   11.17    5134.2
   11.23    5131.0
   11.34    5124.6
   11.44    5118.1
   11.48    5116.0
   11.58    5110.0
   11.69    5104.1
   11.89    5092.1
   11.95    5088.9
   12.01    5085.7
   12.12    5079.3
   12.35    5066.5
   12.80    5041.8
   13.27    5017.0
   13.32    5014.8
   13.36    5012.6
   13.80    4990.1
   14.26    4967.5
   14.97    4933.5
   15.14    4925.8
   15.31    4918.0
   15.87    4893.3
   16.45    4868.5
   17.44    4828.2
   17.56    4823.6
   17.68    4819.0
   18.34    4794.3
   18.68    4781.9
   19.03    4769.5
   19.69    4747.0
   20.39    4724.4
   20.46    4722.2
   20.54    4720.0
   21.36    4695.3
   21.79    4682.9
   22.24    4670.5
   23.16    4646.6
   23.66    4634.6
   24.16    4622.5
   24.19    4621.8
   24.22    4621.0
   24.80    4608.6
   25.37    4596.3
   26.00    4583.9
   26.67    4571.5
   27.43    4559.3
   28.18    4547.1
   29.12    4534.9
   30.06    4522.6
   30.09    4522.3
   30.12    4522.0
   30.74    4515.8
   31.36    4509.7
   32.22    4503.5
   33.07    4497.3
   33.87    4495.0
   34.66    4492.8
   35.45    4490.6
   36.24    4488.3
   37.04    4490.6
   37.83    4492.8
   38.62    4495.0
   39.41    4497.3
   40.27    4503.5
   41.12    4509.7
   41.74    4515.8
   42.37    4522.0
   42.39    4522.3
   42.42    4522.6
   43.37    4534.9
   44.31    4547.1
   45.06    4559.3
   45.81    4571.5
   46.49    4583.9
   47.11    4596.3
   47.69    4608.6
   48.26    4621.0
   48.30    4621.8
   48.33    4622.5
   48.83    4634.6
   49.33    4646.6
   50.25    4670.5
   50.70    4682.9
   51.13    4695.3
   51.95    4720.0
   52.02    4722.2
   52.09    4724.4
   52.79    4747.0
   53.45    4769.5
   53.81    4781.9
   54.15    4794.3
   54.81    4819.0
   54.92    4823.6
   55.04    4828.2
   56.04    4868.5
   56.62    4893.3
   57.17    4918.0
   57.34    4925.8
   57.51    4933.5
   58.23    4967.5
   58.69    4990.1
   59.13    5012.6
   59.17    5014.8
   59.21    5017.0
   59.68    5041.8
   60.14    5066.5
   60.37    5079.3
   60.48    5085.7
   60.54    5088.9
   60.59    5092.1
   60.80    5104.1
   60.90    5110.0
   61.01    5116.0
   61.04    5118.1
   61.15    5124.6
   61.26    5131.0
   61.31    5134.2
   61.37    5137.4
   61.42    5140.6
   61.45    5142.2
   61.46    5143.0
   61.47    5143.8
   61.83    5165.5
   62.22    5190.3
   62.61    5215.0
   62.79    5227.2
   62.97    5239.3
   63.34    5264.5
   63.70    5288.9
   64.05    5314.0
   64.38    5338.3
   64.72    5363.5
   65.04    5387.8
   65.36    5413.0
   65.67    5437.3
   65.97    5462.5
   66.27    5486.8
   66.56    5512.0
   66.84    5536.3
   66.98    5548.9
   67.12    5561.5
   67.19    5567.6
   67.26    5573.6
   67.39    5585.7
   67.46    5592.1
   67.53    5598.4
   67.60    5604.7
   67.67    5611.0
   67.80    5623.4
   67.99    5642.3
   68.18    5661.0
   68.26    5669.1
   68.34    5677.2
   68.36    5679.4
   68.50    5693.2
   68.58    5702.1
   68.62    5706.6
   68.66    5711.0
   68.80    5727.5
   68.82    5729.8
   68.93    5743.9
   68.97    5748.3
   69.06    5760.0
   69.07    5761.0
   69.12    5766.6
   69.20    5777.2
   69.32    5793.3
   69.46    5811.0
   69.58    5827.2
   69.62    5832.5
   69.64    5835.1
   69.65    5836.4
   69.65    5837.1
   69.65    5837.4
   69.66    5837.8
   69.67    5839.1
   69.68    5840.5
   69.69    5841.9
   69.69    5842.6
   69.69    5842.9
   69.70    5843.3
   69.70    5843.3
   69.75    5850.9
   69.82    5861.0
   69.89    5869.8
   70.03    5890.6
   70.10    5900.8
   70.17    5911.0
   70.20    5915.1
   70.22    5919.1
   70.28    5927.2
   70.33    5935.3
   70.38    5943.2
   70.41    5947.7
   70.44    5952.1
   70.47    5956.6
   70.50    5961.0
   70.59    5975.9
   70.68    5990.7
   70.76    6005.4
   70.80    6011.0
   70.85    6019.8
   70.89    6027.3
   70.98    6043.4
   71.08    6061.0
   71.15    6073.2
   71.21    6085.3
   71.28    6097.3
   71.35    6111.0
   71.42    6123.2
   71.48    6135.3
   71.54    6147.3
   71.61    6161.0
   71.68    6175.1
   71.75    6189.1
   71.80    6197.6
   71.84    6206.0
   71.91    6221.5
   71.95    6228.4
   72.00    6239.7
   72.06    6251.0
   72.07    6253.3
   72.15    6270.2
   72.21    6281.9
   72.27    6293.5
   72.32    6304.1
   72.37    6314.6
   72.42    6325.3
   72.44    6330.7
   72.45    6333.3
   72.46    6334.7
   72.47    6336.0
   72.49    6341.0
   72.50    6343.5
   72.51    6347.2
   72.52    6349.1
   72.52    6350.1
   72.52    6351.0
   72.54    6356.0
   72.56    6361.0
   72.57    6366.0
   72.58    6368.5
   72.59    6369.8
   72.59    6371.0
> Scs at  1289.04 seconds at    72.59 degrees for a     30.0 km deep source in the iasp91 model with rayParam    7.964 s/deg.
    0.00    6341.0
    0.01    6336.0
    0.02    6334.7
    0.02    6333.3
    0.03    6330.7
    0.05    6325.3
    0.08    6314.6
    0.11    6304.1
    0.14    6293.5
    0.18    6281.9
    0.22    6270.2
    0.27    6253.3
    0.28    6251.0
    0.31    6239.7
    0.35    6228.4
    0.37    6221.5
    0.42    6206.0
    0.45    6197.6
    0.48    6189.1
    0.52    6175.1
    0.57    6161.0
    0.62    6147.3
    0.66    6135.3
    0.70    6123.2
    0.74    6111.0
    0.79    6097.3
    0.83    6085.3
    0.87    6073.2
    0.91    6061.0
    0.98    6043.4
    1.04    6027.3
    1.06    6019.8
    1.10    6011.0
    1.12    6005.4
    1.17    5990.7
    1.23    5975.9
    1.29    5961.0
    1.30    5956.6
    1.32    5952.1
    1.34    5947.7
    1.36    5943.2
    1.39    5935.3
    1.42    5927.2
    1.46    5919.1
    1.48    5915.1
    1.49    5911.0
    1.54    5900.8
    1.58    5890.6
    1.67    5869.8
    1.71    5861.0
    1.75    5850.9
    1.79    5843.3
    1.79    5843.3
    1.79    5842.9
    1.79    5842.6
    1.79    5841.9
    1.80    5840.5
    1.81    5839.1
    1.81    5837.8
    1.81    5837.4
    1.82    5837.1
    1.82    5836.4
    1.82    5835.1
    1.84    5832.5
    1.86    5827.2
    1.93    5811.0
    2.02    5793.3
    2.09    5777.2
    2.14    5766.6
    2.17    5761.0
    2.17    5760.0
    2.23    5748.3
    2.25    5743.9
    2.32    5729.8
    2.33    5727.5
    2.41    5711.0
    2.44    5706.6
    2.46    5702.1
    2.51    5693.2
    2.59    5679.4
    2.60    5677.2
    2.65    5669.1
    2.69    5661.0
    2.80    5642.3
    2.91    5623.4
    2.98    5611.0
    3.02    5604.7
    3.06    5598.4
    3.10    5592.1
    3.14    5585.7
    3.21    5573.6
    3.25    5567.6
    3.28    5561.5
    3.36    5548.9
    3.44    5536.3
    3.59    5512.0
    3.75    5486.8
    3.91    5462.5
    4.08    5437.3
    4.24    5413.0
    4.41    5387.8
    4.58    5363.5
    4.75    5338.3
    4.92    5314.0
    5.10    5288.9
    5.28    5264.5
    5.47    5239.3
    5.56    5227.2
    5.65    5215.0
    5.84    5190.3
    6.03    5165.5
    6.20    5143.8
    6.21    5143.0
    6.21    5142.2
    6.23    5140.6
    6.25    5137.4
    6.28    5134.2
    6.30    5131.0
    6.35    5124.6
    6.41    5118.1
    6.42    5116.0
    6.47    5110.0
    6.52    5104.1
    6.62    5092.1
    6.64    5088.9
    6.67    5085.7
    6.72    5079.3
    6.83    5066.5
    7.04    5041.8
    7.25    5017.0
    7.26    5014.8
    7.28    5012.6
    7.48    4990.1
    7.68    4967.5
    7.98    4933.5
    8.05    4925.8
    8.12    4918.0
    8.35    4893.3
    8.58    4868.5
    8.97    4828.2
    9.01    4823.6
    9.06    4819.0
    9.30    4794.3
    9.43    4781.9
    9.55    4769.5
    9.78    4747.0
   10.01    4724.4
   10.04    4722.2
   10.06    4720.0
   10.32    4695.3
   10.45    4682.9
   10.59    4670.5
   10.85    4646.6
   11.12    4622.5
   11.13    4621.8
   11.13    4621.0
   11.42    4596.3
   11.56    4583.9
   11.70    4571.5
   11.99    4547.1
   12.28    4522.6
   12.29    4522.3
   12.29    4522.0
   12.44    4509.7
   12.59    4497.3
   12.75    4484.9
   12.90    4472.5
   13.22    4447.8
   13.54    4423.0
   13.85    4399.4
   13.94    4393.0
   14.03    4386.5
   14.20    4373.5
   14.54    4348.8
   14.89    4324.0
   15.09    4310.6
   15.62    4274.5
   16.37    4225.0
   16.39    4223.8
   17.16    4175.5
   17.77    4139.0
   17.99    4126.0
   18.86    4076.5
   19.23    4056.2
   19.78    4027.0
   20.75    3977.5
   20.80    3975.4
   20.92    3969.4
   21.04    3963.5
   21.28    3951.7
   21.53    3939.9
   21.79    3928.0
   22.33    3903.3
   22.60    3890.9
   22.88    3878.5
   23.46    3853.8
   24.06    3829.0
   24.76    3801.0
   24.83    3798.3
   24.90    3795.7
   25.04    3790.3
   25.32    3779.5
   25.89    3758.6
   26.47    3737.7
   26.58    3733.8
   26.69    3730.0
   27.42    3705.3
   28.19    3680.5
   28.35    3675.6
   29.08    3653.3
   29.84    3631.0
   29.93    3628.5
   30.02    3626.0
   30.84    3603.7
   31.70    3581.3
   32.04    3572.7
   32.92    3552.2
   33.80    3531.7
   34.31    3520.6
   35.29    3501.3
   36.26    3482.0
   37.23    3501.3
   38.21    3520.6
   38.72    3531.7
   39.60    3552.2
   40.48    3572.7
   40.82    3581.3
   41.68    3603.7
   42.50    3626.0
   42.59    3628.5
   42.68    3631.0
   43.45    3653.3
   44.17    3675.6
   44.33    3680.5
   45.10    3705.3
   45.83    3730.0
   45.94    3733.8
   46.05    3737.7
   46.63    3758.6
   47.20    3779.5
   47.48    3790.3
   47.62    3795.7
   47.69    3798.3
   47.76    3801.0
   48.46    3829.0
   49.06    3853.8
   49.64    3878.5
   49.92    3890.9
   50.20    3903.3
   50.73    3928.0
   50.99    3939.9
   51.24    3951.7
   51.48    3963.5
   51.60    3969.4
   51.72    3975.4
   51.77    3977.5
   52.74    4027.0
   53.29    4056.2
   53.66    4076.5
   54.53    4126.0
   54.75    4139.0
   55.36    4175.5
   56.13    4223.8
   56.15    4225.0
   56.91    4274.5
   57.44    4310.6
   57.63    4324.0
   57.98    4348.8
   58.32    4373.5
   58.49    4386.5
   58.58    4393.0
   58.67    4399.4
   58.98    4423.0
   59.30    4447.8
   59.62    4472.5
   59.77    4484.9
   59.93    4497.3
   60.08    4509.7
   60.23    4522.0
   60.23    4522.3
   60.24    4522.6
   60.53    4547.1
   60.82    4571.5
   60.96    4583.9
   61.11    4596.3
   61.39    4621.0
   61.39    4621.8
   61.40    4622.5
   61.67    4646.6
   61.93    4670.5
   62.07    4682.9
   62.20    4695.3
   62.46    4720.0
   62.48    4722.2
   62.51    4724.4
   62.74    4747.0
   62.97    4769.5
   63.09    4781.9
   63.22    4794.3
   63.46    4819.0
   63.51    4823.6
   63.55    4828.2
   63.94    4868.5
   64.17    4893.3
   64.40    4918.0
   64.47    4925.8
   64.54    4933.5
   64.84    4967.5
   65.04    4990.1
   65.24    5012.6
   65.26    5014.8
   65.27    5017.0
   65.49    5041.8
   65.69    5066.5
   65.80    5079.3
   65.85    5085.7
   65.88    5088.9
   65.90    5092.1
   66.00    5104.1
   66.05    5110.0
   66.10    5116.0
   66.11    5118.1
   66.17    5124.6
   66.22    5131.0
   66.24    5134.2
   66.27    5137.4
   66.29    5140.6
   66.31    5142.2
   66.31    5143.0
   66.32    5143.8
   66.49    5165.5
   66.68    5190.3
   66.87    5215.0
   66.96    5227.2
   67.05    5239.3
   67.24    5264.5
   67.42    5288.9
   67.60    5314.0
   67.77    5338.3
   67.94    5363.5
   68.11    5387.8
   68.28    5413.0
   68.44    5437.3
   68.61    5462.5
   68.77    5486.8
   68.93    5512.0
   69.08    5536.3
   69.16    5548.9
   69.24    5561.5
   69.27    5567.6
   69.31    5573.6
   69.38    5585.7
   69.42    5592.1
   69.46    5598.4
   69.50    5604.7
   69.54    5611.0
   69.61    5623.4
   69.72    5642.3
   69.83    5661.0
   69.87    5669.1
   69.92    5677.2
   69.93    5679.4
   70.01    5693.2
   70.06    5702.1
   70.08    5706.6
   70.11    5711.0
   70.19    5727.5
   70.20    5729.8
   70.27    5743.9
   70.29    5748.3
   70.35    5760.0
   70.35    5761.0
   70.38    5766.6
   70.43    5777.2
   70.50    5793.3
   70.59    5811.0
   70.66    5827.2
   70.68    5832.5
   70.70    5835.1
   70.70    5836.4
   70.71    5837.1
   70.71    5837.4
   70.71    5837.8
   70.71    5839.1
   70.72    5840.5
   70.73    5841.9
   70.73    5842.6
   70.73    5842.9
   70.73    5843.3
   70.73    5843.3
   70.77    5850.9
   70.81    5861.0
   70.85    5869.8
   70.94    5890.6
   70.98    5900.8
   71.03    5911.0
   71.04    5915.1
   71.06    5919.1
   71.10    5927.2
   71.13    5935.3
   71.16    5943.2
   71.18    5947.7
   71.20    5952.1
   71.22    5956.6
   71.23    5961.0
   71.29    5975.9
   71.35    5990.7
   71.40    6005.4
   71.42    6011.0
   71.46    6019.8
   71.48    6027.3
   71.54    6043.4
   71.61    6061.0
   71.65    6073.2
   71.69    6085.3
   71.73    6097.3
   71.78    6111.0
   71.82    6123.2
   71.86    6135.3
   71.90    6147.3
   71.95    6161.0
   72.00    6175.1
   72.04    6189.1
   72.07    6197.6
   72.10    6206.0
   72.15    6221.5
   72.17    6228.4
   72.21    6239.7
   72.24    6251.0
   72.25    6253.3
   72.30    6270.2
   72.34    6281.9
   72.38    6293.5
   72.41    6304.1
   72.44    6314.6
   72.47    6325.3
   72.49    6330.7
   72.50    6333.3
   72.50    6334.7
   72.51    6336.0
   72.52    6341.0
   72.53    6343.5
   72.54    6347.2
   72.54    6349.1
   72.54    6350.1
   72.55    6351.0
   72.56    6356.0
   72.57    6361.0
   72.58    6366.0
   72.58    6368.5
   72.59    6369.8
   72.59    6371.0
END
psxy -P -R -O -JP -m -A >> taup_path.ps <<END
END
